File: PXRD/xrd2.xyd
1	325
1.015	338
1.03	338
1.045	367
1.06	376
1.075	532
1.09	866
1.105	1149
1.12	1514
1.135	1884
1.15	2238
1.165	2679
1.18	3073
1.195	3480
1.21	3662
1.225	3986
1.24	4282
1.255	4495
1.27	4817
1.285	4999
1.3	5084
1.315	5038
1.33	5036
1.345	5078
1.36	5032
1.375	4988
1.39	4783
1.405	5111
1.42	4874
1.435	5022
1.45	4983
1.465	5047
1.48	4908
1.495	4938
1.51	5109
1.525	5159
1.54	5083
1.555	4899
1.57	4909
1.585	5151
1.6	5162
1.615	5235
1.63	5159
1.645	5220
1.66	5252
1.675	5269
1.69	5395
1.705	5423
1.72	5418
1.735	5414
1.75	5611
1.765	5640
1.78	5675
1.795	5765
1.81	5952
1.825	6168
1.84	6144
1.855	5985
1.87	6290
1.885	6555
1.9	6538
1.915	6942
1.93	6891
1.945	7221
1.96	7274
1.975	7484
1.99	7700
2.005	8133
2.02	8381
2.035	8289
2.05	8469
2.065	8795
2.08	9045
2.095	9575
2.11	10033
2.125	10416
2.14	10981
2.155	11154
2.17	11451
2.185	11991
2.2	12982
2.215	13146
2.23	14156
2.245	14784
2.26	15242
2.275	16741
2.29	17528
2.305	19258
2.32	21158
2.335	23197
2.35	26848
2.365	31741
2.38	37959
2.395	38519
2.41	38454
2.425	33285
2.44	28253
2.455	19811
2.47	11317
2.485	5563
2.5	3770
2.515	3377
2.53	3106
2.545	2906
2.56	2788
2.575	2772
2.59	2696
2.605	2678
2.62	2666
2.635	2567
2.65	2547
2.665	2558
2.68	2536
2.695	2559
2.71	2493
2.725	2497
2.74	2457
2.755	2494
2.77	2362
2.785	2314
2.8	2413
2.815	2402
2.83	2487
2.845	2329
2.86	2294
2.875	2353
2.89	2296
2.905	2304
2.92	2326
2.935	2247
2.95	2269
2.965	2300
2.98	2379
2.995	2281
3.01	2352
3.025	2329
3.04	2261
3.055	2240
3.07	2309
3.085	2310
3.1	2310
3.115	2307
3.13	2349
3.145	2281
3.16	2287
3.175	2276
3.19	2186
3.205	2211
3.22	2211
3.235	2299
3.25	2334
3.265	2225
3.28	2259
3.295	2232
3.31	2217
3.325	2168
3.34	2137
3.355	2129
3.37	2155
3.385	2174
3.4	2089
3.415	2236
3.43	2179
3.445	2244
3.46	2225
3.475	2238
3.49	2186
3.505	2179
3.52	2210
3.535	2087
3.55	2148
3.565	2096
3.58	2093
3.595	2146
3.61	2071
3.625	2161
3.64	2115
3.655	2112
3.67	2187
3.685	2209
3.7	2159
3.715	2062
3.73	2019
3.745	2044
3.76	2046
3.775	2083
3.79	2062
3.805	2078
3.82	2122
3.835	2158
3.85	2053
3.865	2076
3.88	2116
3.895	2033
3.91	2097
3.925	2249
3.94	2215
3.955	2242
3.97	2169
3.985	2203
4	2241
4.015	2415
4.03	2314
4.045	2248
4.06	2308
4.075	2294
4.09	2332
4.105	2521
4.12	2580
4.135	2685
4.15	2731
4.165	2802
4.18	2886
4.195	2732
4.21	2734
4.225	2584
4.24	2543
4.255	2509
4.27	2474
4.285	2464
4.3	2563
4.315	2684
4.33	2732
4.345	2729
4.36	2817
4.375	2969
4.39	3104
4.405	3202
4.42	3556
4.435	3669
4.45	3855
4.465	4056
4.48	4320
4.495	4604
4.51	4924
4.525	5019
4.54	5063
4.555	5194
4.57	5302
4.585	5441
4.6	5556
4.615	5581
4.63	6019
4.645	6259
4.66	6746
4.675	7281
4.69	7784
4.705	8669
4.72	9338
4.735	10382
4.75	11741
4.765	13797
4.78	16543
4.795	20049
4.81	22591
4.825	22566
4.84	21531
4.855	17974
4.87	13464
4.885	8256
4.9	4436
4.915	2843
4.93	2622
4.945	2632
4.96	2690
4.975	2661
4.99	2883
5.005	2960
5.02	3117
5.035	3170
5.05	3307
5.065	3405
5.08	3551
5.095	3897
5.11	4348
5.125	4961
5.14	5737
5.155	6119
5.17	5749
5.185	5288
5.2	4645
5.215	3913
5.23	2790
5.245	2299
5.26	2169
5.275	2144
5.29	2153
5.305	2121
5.32	2158
5.335	2153
5.35	2104
5.365	2174
5.38	2170
5.395	2108
5.41	2072
5.425	2275
5.44	2157
5.455	2217
5.47	2226
5.485	2253
5.5	2204
5.515	2377
5.53	2405
5.545	2384
5.56	2370
5.575	2322
5.59	2440
5.605	2500
5.62	2482
5.635	2721
5.65	2731
5.665	2935
5.68	3093
5.695	3192
5.71	3090
5.725	2960
5.74	2748
5.755	2515
5.77	2292
5.785	2160
5.8	2095
5.815	2128
5.83	2110
5.845	2197
5.86	2100
5.875	2057
5.89	2079
5.905	2123
5.92	2112
5.935	2188
5.95	2190
5.965	2137
5.98	2072
5.995	2142
6.01	2092
6.025	2191
6.04	2180
6.055	2105
6.07	2137
6.085	2131
6.1	2125
6.115	2156
6.13	2132
6.145	2170
6.16	2237
6.175	2193
6.19	2155
6.205	2107
6.22	2193
6.235	2129
6.25	2167
6.265	2181
6.28	2156
6.295	2158
6.31	2189
6.325	2299
6.34	2370
6.355	2321
6.37	2473
6.385	2487
6.4	2579
6.415	2537
6.43	2683
6.445	2585
6.46	2736
6.475	2672
6.49	2802
6.505	2751
6.52	2990
6.535	3091
6.55	3223
6.565	3440
6.58	3621
6.595	3950
6.61	4660
6.625	5388
6.64	5724
6.655	5340
6.67	5204
6.685	4638
6.7	3851
6.715	3132
6.73	2615
6.745	2405
6.76	2470
6.775	2543
6.79	2649
6.805	2627
6.82	2798
6.835	3020
6.85	3204
6.865	3299
6.88	3609
6.895	3904
6.91	4027
6.925	4391
6.94	5019
6.955	5576
6.97	6428
6.985	7137
7	8330
7.015	9954
7.03	12656
7.045	16141
7.06	18025
7.075	17916
7.09	16754
7.105	15030
7.12	11942
7.135	7964
7.15	4596
7.165	3469
7.18	3369
7.195	3614
7.21	4099
7.225	4761
7.24	4899
7.255	4873
7.27	4507
7.285	4115
7.3	3435
7.315	2666
7.33	2111
7.345	1920
7.36	1872
7.375	1896
7.39	1885
7.405	1847
7.42	1772
7.435	1845
7.45	1785
7.465	1743
7.48	1821
7.495	1850
7.51	1754
7.525	1757
7.54	1824
7.555	1811
7.57	1808
7.585	1773
7.6	1748
7.615	1771
7.63	1780
7.645	1741
7.66	1792
7.675	1789
7.69	1775
7.705	1793
7.72	1770
7.735	1737
7.75	1726
7.765	1718
7.78	1737
7.795	1770
7.81	1760
7.825	1828
7.84	1793
7.855	1821
7.87	1806
7.885	1756
7.9	1857
7.915	1808
7.93	1761
7.945	1878
7.96	1869
7.975	1891
7.99	1844
8.005	1929
8.02	1980
8.035	2059
8.05	2041
8.065	2082
8.08	2199
8.095	2240
8.11	2285
8.125	2452
8.14	2668
8.155	2811
8.17	3194
8.185	3656
8.2	4233
8.215	4329
8.23	4423
8.245	4107
8.26	3620
8.275	2998
8.29	2302
8.305	1905
8.32	1767
8.335	1756
8.35	1784
8.365	1701
8.38	1734
8.395	1720
8.41	1720
8.425	1610
8.44	1655
8.455	1681
8.47	1600
8.485	1590
8.5	1643
8.515	1533
8.53	1479
8.545	1568
8.56	1535
8.575	1486
8.59	1547
8.605	1568
8.62	1618
8.635	1589
8.65	1592
8.665	1596
8.68	1597
8.695	1651
8.71	1654
8.725	1614
8.74	1586
8.755	1629
8.77	1583
8.785	1536
8.8	1467
8.815	1432
8.83	1489
8.845	1514
8.86	1499
8.875	1477
8.89	1470
8.905	1432
8.92	1460
8.935	1446
8.95	1482
8.965	1524
8.98	1496
8.995	1473
9.01	1453
9.025	1470
9.04	1549
9.055	1557
9.07	1482
9.085	1462
9.1	1424
9.115	1489
9.13	1534
9.145	1465
9.16	1487
9.175	1467
9.19	1434
9.205	1423
9.22	1399
9.235	1438
9.25	1373
9.265	1428
9.28	1431
9.295	1458
9.31	1518
9.325	1443
9.34	1391
9.355	1388
9.37	1436
9.385	1433
9.4	1472
9.415	1432
9.43	1421
9.445	1522
9.46	1446
9.475	1526
9.49	1582
9.505	1692
9.52	1641
9.535	1731
9.55	1867
9.565	1929
9.58	1973
9.595	2129
9.61	2361
9.625	2781
9.64	3262
9.655	3675
9.67	3713
9.685	3738
9.7	3542
9.715	3337
9.73	2898
9.745	2603
9.76	2588
9.775	2836
9.79	3251
9.805	3966
9.82	4720
9.835	5232
9.85	5326
9.865	5097
9.88	4411
9.895	3482
9.91	2431
9.925	1705
9.94	1388
9.955	1386
9.97	1335
9.985	1399
10	1421
10.015	1428
10.03	1453
10.045	1517
10.06	1429
10.075	1408
10.09	1426
10.105	1458
10.12	1551
10.135	1551
10.15	1586
10.165	1551
10.18	1536
10.195	1461
10.21	1353
10.225	1391
10.24	1388
10.255	1357
10.27	1403
10.285	1400
10.3	1384
10.315	1408
10.33	1429
10.345	1512
10.36	1465
10.375	1384
10.39	1428
10.405	1369
10.42	1381
10.435	1314
10.45	1397
10.465	1396
10.48	1368
10.495	1383
10.51	1397
10.525	1332
10.54	1349
10.555	1403
10.57	1375
10.585	1364
10.6	1387
10.615	1391
10.63	1416
10.645	1411
10.66	1375
10.675	1325
10.69	1348
10.705	1332
10.72	1349
10.735	1408
10.75	1318
10.765	1316
10.78	1347
10.795	1306
10.81	1316
10.825	1299
10.84	1291
10.855	1332
10.87	1349
10.885	1336
10.9	1300
10.915	1336
10.93	1390
10.945	1382
10.96	1469
10.975	1487
10.99	1542
11.005	1408
11.02	1461
11.035	1422
11.05	1452
11.065	1427
11.08	1399
11.095	1412
11.11	1413
11.125	1474
11.14	1574
11.155	1614
11.17	1629
11.185	1615
11.2	1509
11.215	1483
11.23	1398
11.245	1380
11.26	1376
11.275	1375
11.29	1414
11.305	1449
11.32	1471
11.335	1438
11.35	1493
11.365	1542
11.38	1640
11.395	1839
11.41	1916
11.425	2060
11.44	1977
11.455	2015
11.47	1882
11.485	1684
11.5	1487
11.515	1387
11.53	1313
11.545	1325
11.56	1411
11.575	1353
11.59	1341
11.605	1379
11.62	1367
11.635	1419
11.65	1451
11.665	1462
11.68	1421
11.695	1477
11.71	1550
11.725	1646
11.74	1781
11.755	1744
11.77	1659
11.785	1694
11.8	1610
11.815	1443
11.83	1351
11.845	1307
11.86	1317
11.875	1346
11.89	1349
11.905	1338
11.92	1322
11.935	1319
11.95	1300
11.965	1399
11.98	1344
11.995	1388
12.01	1408
12.025	1495
12.04	1514
12.055	1574
12.07	1721
12.085	1811
12.1	1834
12.115	1863
12.13	1858
12.145	1901
12.16	1940
12.175	1792
12.19	1746
12.205	1679
12.22	1575
12.235	1502
12.25	1411
12.265	1335
12.28	1327
12.295	1270
12.31	1271
12.325	1279
12.34	1302
12.355	1285
12.37	1260
12.385	1301
12.4	1298
12.415	1304
12.43	1281
12.445	1237
12.46	1374
12.475	1267
12.49	1313
12.505	1323
12.52	1386
12.535	1330
12.55	1285
12.565	1369
12.58	1359
12.595	1349
12.61	1343
12.625	1316
12.64	1287
12.655	1308
12.67	1290
12.685	1255
12.7	1241
12.715	1246
12.73	1254
12.745	1283
12.76	1244
12.775	1236
12.79	1264
12.805	1209
12.82	1233
12.835	1200
12.85	1203
12.865	1213
12.88	1204
12.895	1218
12.91	1179
12.925	1184
12.94	1199
12.955	1182
12.97	1227
12.985	1226
13	1242
13.015	1209
13.03	1196
13.045	1239
13.06	1313
13.075	1280
13.09	1241
13.105	1187
13.12	1177
13.135	1250
13.15	1313
13.165	1299
13.18	1305
13.195	1333
13.21	1293
13.225	1343
13.24	1340
13.255	1441
13.27	1491
13.285	1581
13.3	1770
13.315	1935
13.33	2005
13.345	1951
13.36	1880
13.375	1702
13.39	1478
13.405	1346
13.42	1335
13.435	1308
13.45	1286
13.465	1340
13.48	1338
13.495	1293
13.51	1323
13.525	1346
13.54	1207
13.555	1306
13.57	1341
13.585	1255
13.6	1238
13.615	1190
13.63	1186
13.645	1189
13.66	1214
13.675	1215
13.69	1228
13.705	1132
13.72	1133
13.735	1205
13.75	1196
13.765	1178
13.78	1208
13.795	1225
13.81	1243
13.825	1191
13.84	1251
13.855	1244
13.87	1188
13.885	1138
13.9	1131
13.915	1118
13.93	1153
13.945	1146
13.96	1156
13.975	1210
13.99	1156
14.005	1149
14.02	1145
14.035	1165
14.05	1172
14.065	1200
14.08	1182
14.095	1199
14.11	1150
14.125	1186
14.14	1159
14.155	1181
14.17	1195
14.185	1176
14.2	1200
14.215	1220
14.23	1238
14.245	1176
14.26	1189
14.275	1096
14.29	1145
14.305	1163
14.32	1127
14.335	1112
14.35	1151
14.365	1136
14.38	1170
14.395	1187
14.41	1262
14.425	1211
14.44	1304
14.455	1304
14.47	1471
14.485	1489
14.5	1614
14.515	1725
14.53	1862
14.545	1782
14.56	1853
14.575	1758
14.59	1544
14.605	1297
14.62	1165
14.635	1128
14.65	1139
14.665	1140
14.68	1179
14.695	1151
14.71	1166
14.725	1172
14.74	1168
14.755	1233
14.77	1232
14.785	1249
14.8	1234
14.815	1239
14.83	1196
14.845	1165
14.86	1177
14.875	1121
14.89	1140
14.905	1104
14.92	1126
14.935	1160
14.95	1156
14.965	1094
14.98	1120
14.995	1132
15.01	1190
15.025	1184
15.04	1145
15.055	1168
15.07	1272
15.085	1231
15.1	1217
15.115	1302
15.13	1262
15.145	1339
15.16	1376
15.175	1357
15.19	1317
15.205	1341
15.22	1293
15.235	1298
15.25	1190
15.265	1167
15.28	1115
15.295	1128
15.31	1128
15.325	1128
15.34	1158
15.355	1098
15.37	1177
15.385	1183
15.4	1195
15.415	1307
15.43	1363
15.445	1334
15.46	1265
15.475	1349
15.49	1274
15.505	1252
15.52	1201
15.535	1179
15.55	1131
15.565	1126
15.58	1114
15.595	1101
15.61	1133
15.625	1103
15.64	1096
15.655	1151
15.67	1145
15.685	1120
15.7	1114
15.715	1108
15.73	1149
15.745	1133
15.76	1169
15.775	1145
15.79	1135
15.805	1116
15.82	1199
15.835	1141
15.85	1158
15.865	1179
15.88	1135
15.895	1164
15.91	1098
15.925	1061
15.94	1116
15.955	1171
15.97	1143
15.985	1165
16	1157
16.015	1150
16.03	1136
16.045	1151
16.06	1159
16.075	1185
16.09	1212
16.105	1174
16.12	1147
16.135	1153
16.15	1113
16.165	1136
16.18	1141
16.195	1185
16.21	1199
16.225	1214
16.24	1177
16.255	1214
16.27	1269
16.285	1262
16.3	1353
16.315	1305
16.33	1296
16.345	1296
16.36	1210
16.375	1156
16.39	1160
16.405	1108
16.42	1129
16.435	1162
16.45	1154
16.465	1145
16.48	1153
16.495	1129
16.51	1197
16.525	1144
16.54	1124
16.555	1068
16.57	1127
16.585	1127
16.6	1117
16.615	1079
16.63	1078
16.645	1093
16.66	1119
16.675	1082
16.69	1117
16.705	1049
16.72	1161
16.735	1169
16.75	1167
16.765	1190
16.78	1169
16.795	1134
16.81	1129
16.825	1164
16.84	1162
16.855	1176
16.87	1211
16.885	1179
16.9	1165
16.915	1174
16.93	1142
16.945	1116
16.96	1151
16.975	1152
16.99	1285
17.005	1252
17.02	1273
17.035	1213
17.05	1255
17.065	1200
17.08	1169
17.095	1148
17.11	1122
17.125	1114
17.14	1085
17.155	1143
17.17	1165
17.185	1124
17.2	1145
17.215	1169
17.23	1122
17.245	1118
17.26	1138
17.275	1160
17.29	1125
17.305	1098
17.32	1109
17.335	1130
17.35	1136
17.365	1110
17.38	1075
17.395	1103
17.41	1095
17.425	1149
17.44	1101
17.455	1121
17.47	1093
17.485	1126
17.5	1124
17.515	1101
17.53	1110
17.545	1168
17.56	1112
17.575	1135
17.59	1138
17.605	1129
17.62	1134
17.635	1099
17.65	1064
17.665	1087
17.68	1133
17.695	1157
17.71	1128
17.725	1170
17.74	1197
17.755	1214
17.77	1217
17.785	1189
17.8	1205
17.815	1182
17.83	1177
17.845	1152
17.86	1182
17.875	1143
17.89	1181
17.905	1225
17.92	1162
17.935	1175
17.95	1084
17.965	1131
17.98	1073
17.995	1149
18.01	1118
18.025	1152
18.04	1145
18.055	1163
18.07	1126
18.085	1175
18.1	1162
18.115	1109
18.13	1086
18.145	1101
18.16	1138
18.175	1165
18.19	1102
18.205	1060
18.22	1119
18.235	1056
18.25	1145
18.265	1145
18.28	1144
18.295	1120
18.31	1099
18.325	1142
18.34	1184
18.355	1270
18.37	1287
18.385	1188
18.4	1175
18.415	1146
18.43	1095
18.445	1053
18.46	1101
18.475	1058
18.49	1098
18.505	1057
18.52	1129
18.535	1111
18.55	1105
18.565	1018
18.58	1134
18.595	1154
18.61	1104
18.625	1037
18.64	1020
18.655	1098
18.67	1056
18.685	1072
18.7	1096
18.715	1036
18.73	1082
18.745	1109
18.76	1089
18.775	1114
18.79	1114
18.805	1101
18.82	1120
18.835	1099
18.85	1099
18.865	1073
18.88	1091
18.895	1074
18.91	1084
18.925	1074
18.94	1082
18.955	1123
18.97	1073
18.985	1116
19	1186
19.015	1114
19.03	1127
19.045	1098
19.06	1141
19.075	1117
19.09	1138
19.105	1130
19.12	1088
19.135	1083
19.15	1103
19.165	1049
19.18	1073
19.195	1006
19.21	1041
19.225	1096
19.24	1053
19.255	1089
19.27	1042
19.285	1080
19.3	1076
19.315	1072
19.33	1087
19.345	1075
19.36	1048
19.375	1050
19.39	1101
19.405	1108
19.42	1101
19.435	1135
19.45	1153
19.465	1159
19.48	1126
19.495	1130
19.51	1021
19.525	1060
19.54	1044
19.555	1046
19.57	1003
19.585	1026
19.6	1109
19.615	1101
19.63	1029
19.645	1037
19.66	1021
19.675	1056
19.69	1057
19.705	1091
19.72	1045
19.735	1104
19.75	1136
19.765	1152
19.78	1199
19.795	1155
19.81	1152
19.825	1111
19.84	1157
19.855	1219
19.87	1198
19.885	1264
19.9	1393
19.915	1558
19.93	1476
19.945	1461
19.96	1429
19.975	1316
19.99	1225
20.005	1201
20.02	1156
20.035	1104
20.05	1051
20.065	1086
20.08	1119
20.095	1104
20.11	1132
20.125	1064
20.14	1039
20.155	1052
20.17	1035
20.185	1040
20.2	1022
20.215	995
20.23	992
20.245	951
20.26	1017
20.275	1022
20.29	1049
20.305	1015
20.32	1063
20.335	1041
20.35	1014
20.365	1073
20.38	1052
20.395	1085
20.41	1039
20.425	1024
20.44	1047
20.455	991
20.47	958
20.485	949
20.5	1048
20.515	1017
20.53	1008
20.545	947
20.56	974
20.575	956
20.59	973
20.605	1037
20.62	1029
20.635	1030
20.65	981
20.665	1017
20.68	1063
20.695	1027
20.71	1008
20.725	972
20.74	975
20.755	949
20.77	986
20.785	984
20.8	973
20.815	976
20.83	973
20.845	926
20.86	975
20.875	918
20.89	982
20.905	955
20.92	921
20.935	920
20.95	912
20.965	909
20.98	906
20.995	908
21.01	999
21.025	995
21.04	970
21.055	1002
21.07	1038
21.085	1102